\comment SH ordfind table for S13.0, 29 Sep 2005, D. Shupe
\comment all a0, a1, b0, b1 coefficients are changed from S12
\comment adjustments made to min and max wavelengths
\character channelID = 1
| order | wavelength_center |  a5       | a4        | a3         |  a2       |    a1     | a0       |  b5       | b4         | b3        |  b2         |    b1    | b0       | wavelength_min | wavelength_max | width_search |  width_found |
| int   | real              |  real     | real      | real       |  real     |  real     | real     |  real     | real       | real      |  real       |    real  | real     | real           | real           | real         |  real        |
 11         18.6561          0.0000e+00  0.0000e+00    0.0000e+00  0.0000e+00    -62.1903    9.2880  0.0000e+00    0.0000e+00  0.0000e+00    0.0000e+00  -1298.27  63.8748        17.7346      19.5740           8.5000e+00     5.00000e+00
 12         17.1507          0.0000e+00  0.0000e+00    0.0000e+00  0.0000e+00    -47.2572   29.8484  0.0000e+00    0.0000e+00  0.0000e+00    0.0000e+00  -1304.94  63.3153        16.3006      17.9828           8.5000e+00     5.00000e+00
 13         15.8620          0.0000e+00  0.0000e+00    0.0000e+00  0.0000e+00    -32.9535   47.3170  0.0000e+00    0.0000e+00  0.0000e+00    0.0000e+00  -1286.78  63.4942        15.0668      16.6447           8.5000e+00     5.10000e+00
 14         14.7508          0.0000e+00  0.0000e+00    0.0000e+00  0.0000e+00    -22.7053   62.3641  0.0000e+00    0.0000e+00  0.0000e+00    0.0000e+00  -1292.39  63.5509        14.0152      15.4761           8.5000e+00     5.00000e+00
 15         13.7864          0.0000e+00  0.0000e+00    0.0000e+00  0.0000e+00     -8.8633   75.4996  0.0000e+00    0.0000e+00  0.0000e+00    0.0000e+00  -1294.15  63.4355        13.0986      14.4622           8.5000e+00     5.05000e+00
 16         12.9127          0.0000e+00  0.0000e+00    0.0000e+00  0.0000e+00     -6.9080   86.9934  0.0000e+00    0.0000e+00  0.0000e+00    0.0000e+00  -1290.05  66.0460        12.2926      13.5738           8.5000e+00     5.00000e+00
 17         12.1306          0.0000e+00  0.0000e+00    0.0000e+00  0.0000e+00      7.4467   97.1922  0.0000e+00    0.0000e+00  0.0000e+00    0.0000e+00  -1284.02  69.6903        11.5797      12.7323           8.5000e+00     5.00000e+00
 18         11.4455          0.0000e+00  0.0000e+00    0.0000e+00  0.0000e+00     13.2843  106.2438  0.0000e+00    0.0000e+00  0.0000e+00    0.0000e+00  -1280.79  72.0663        10.9457      11.9823           8.5000e+00     5.00000e+00
 19         10.8268          0.0000e+00  0.0000e+00    0.0000e+00  0.0000e+00     19.5664  114.3122  0.0000e+00    0.0000e+00  0.0000e+00    0.0000e+00  -1274.91  74.8424        10.3754      11.3010           8.5000e+00     5.75000e+00
 20         10.2749          0.0000e+00  0.0000e+00    0.0000e+00  0.0000e+00     26.7573  121.5256  0.0000e+00    0.0000e+00  0.0000e+00    0.0000e+00  -1280.47  76.7299         9.8635      10.7060           8.5000e+00     5.75000e+00
