\comment LH ordfind table for S13.0, 2005 Sep 13, D. Shupe
\comment min and max wavelengths adjusted to not fall off array
\comment a0 coefficients adjusted for all orders
\comment a1 coefficients adjusted for orders all orders
\order file
\character channelID = 3
| order | wavelength_center |    a5     |    a4     |    a3     |    a2     |    a1     |    a0     |    b5     |    b4     |    b3     |    b2      |    b1      |    b0     | wavelength_min | wavelength_max | width_search | width_found|
| int   | real              |    real   |    real   |    real   |    real   |    real   |    real   |    real   |    real   |    real   |    real    |    real    |    real   | real           | real           | real         | real       |
 11          35.34692         0.0000e+00  0.0000e+00  0.0000e+00  0.0000e+00    88.2705    118.8833   0.0000e+00  0.0000e+00  0.0000e+00    736.41260   1298.79968    57.89400     33.7352            37.2200       6.5000e+00     4.750e+00
 12          32.50160         0.0000e+00  0.0000e+00  0.0000e+00  0.0000e+00    66.3953     98.5051   0.0000e+00  0.0000e+00  0.0000e+00    726.65350   1290.16504    57.89400     31.0000            34.2250       6.5000e+00     4.610e+00
 13          30.08501         0.0000e+00  0.0000e+00  0.0000e+00  0.0000e+00    48.1807     81.1325   0.0000e+00  0.0000e+00  0.0000e+00    738.74194   1300.85217    57.89400     28.7100            31.6678       6.5000e+00     4.750e+00
 14          27.97612         0.0000e+00  0.0000e+00  0.0000e+00  0.0000e+00    32.0452     66.1100   0.0000e+00  0.0000e+00  0.0000e+00    721.66870   1285.73218    57.89400     26.6841            29.4600       6.5000e+00     4.750e+00
 15          26.14389         0.0000e+00  0.0000e+00  0.0000e+00  0.0000e+00    18.7599     52.9923   0.0000e+00  0.0000e+00  0.0000e+00    724.15497   1287.94507    57.89400     24.9300            27.5300       6.5000e+00     4.800e+00
 16          24.53523         0.0000e+00  0.0000e+00  0.0000e+00  0.0000e+00     6.8844     41.4268   0.0000e+00  0.0000e+00  0.0000e+00    728.70795   1291.98755    57.89400     23.4000            25.8300       6.5000e+00     4.750e+00
 17          23.10618         0.0000e+00  0.0000e+00  0.0000e+00  0.0000e+00    -3.8171     31.1201   0.0000e+00  0.0000e+00  0.0000e+00    705.09875   1270.88586    57.89400     22.0222            24.3400       6.5000e+00     4.700e+00
 18          21.82563         0.0000e+00  0.0000e+00  0.0000e+00  0.0000e+00   -13.5184     21.9552   0.0000e+00  0.0000e+00  0.0000e+00    710.13336   1275.41504    57.89400     20.8059            22.9800       6.5000e+00     4.750e+00
 19          20.69143         0.0000e+00  0.0000e+00  0.0000e+00  0.0000e+00   -22.8033     13.6593   0.0000e+00  0.0000e+00  0.0000e+00    740.26294   1302.19067    57.89400     19.7500            21.7744       6.0000e+00     4.800e+00
 20          19.66696         0.0000e+00  0.0000e+00  0.0000e+00  0.0000e+00   -33.7126      6.2343   0.0000e+00  0.0000e+00  0.0000e+00    697.44580   1263.97009    57.89400     18.7511            20.7300       6.0000e+00     4.800e+00
