\wavsamp version 3.0 (Fri Jul 28 12:09:58 PDT 2000)
\processing time 08:51:36 PST 10/09/2001
| order |x_center |y_center |   wavelength   |  angle   |   x0    |   y0    |   x1    |   y1    |   x2    |   y2    |   x3    |   y3    |
| int   |  real   |  real   |    real        |   real   |  real   |  real   |  real   |  real   |  real   |  real   |  real   |  real   |
2         78.60708  82.34401         13.85600   0.000000  95.69130  82.80923  61.51730  82.80923  61.52299  81.87878  95.69699  81.87878
2         78.61304  81.41354         13.94068   0.000000  95.69699  81.87878  61.52299  81.87878  61.52922  80.94831  95.70322  80.94831
2         78.61953  80.48307         14.02535   0.000000  95.70322  80.94831  61.52922  80.94831  61.53599  80.01783  95.70999  80.01783
2         78.62657  79.55259         14.11003   0.000000  95.70999  80.01783  61.53599  80.01783  61.54329  79.08734  95.71729  79.08734
2         78.63415  78.62209         14.19471   0.000000  95.71729  79.08734  61.54329  79.08734  61.55114  78.15684  95.72514  78.15684
2         78.64227  77.69159         14.27938   0.000000  95.72514  78.15684  61.55114  78.15684  61.55953  77.22633  95.73353  77.22633
2         78.65092  76.76107         14.36406   0.000000  95.73353  77.22633  61.55953  77.22633  61.56845  76.29581  95.74245  76.29581
2         78.66012  75.83054         14.44874   0.000000  95.74245  76.29581  61.56845  76.29581  61.57792  75.36527  95.75192  75.36527
2         78.66985  74.90000         14.53341   0.000000  95.75192  75.36527  61.57792  75.36527  61.58792  74.43473  95.76192  74.43473
2         78.68013  73.96945         14.61809   0.000000  95.76192  74.43473  61.58792  74.43473  61.59846  73.50417  95.77246  73.50417
2         78.69094  73.03889         14.70277   0.000000  95.77246  73.50417  61.59846  73.50417  61.60955  72.57360  95.78355  72.57360
2         78.70229  72.10831         14.78745   0.000000  95.78355  72.57360  61.60955  72.57360  61.62117  71.64302  95.79517  71.64302
2         78.71418  71.17773         14.87212   0.000000  95.79517  71.64302  61.62117  71.64302  61.63333  70.71243  95.80733  70.71243
2         78.72661  70.24713         14.95680   0.000000  95.80733  70.71243  61.63333  70.71243  61.64602  69.78183  95.82002  69.78183
2         78.73957  69.31653         15.04148   0.000000  95.82002  69.78183  61.64602  69.78183  61.65926  68.85122  95.83326  68.85122
2         78.75308  68.38591         15.12615   0.000000  95.83326  68.85122  61.65926  68.85122  61.67303  67.92060  95.84703  67.92060
2         78.76712  67.45528         15.21083   0.000000  95.84703  67.92060  61.67303  67.92060  61.68735  66.98996  95.86135  66.98996
2         78.78171  66.52464         15.29551   0.000000  95.86135  66.98996  61.68735  66.98996  61.70220  66.05931  95.87620  66.05931
2         78.79683  65.59399         15.38018   0.000000  95.87620  66.05931  61.70220  66.05931  61.71759  65.12866  95.89159  65.12866
2         78.81248  64.66332         15.46486   0.000000  95.89159  65.12866  61.71759  65.12866  61.73351  64.19799  95.90751  64.19799
2         78.82868  63.73265         15.54954   0.000000  95.90751  64.19799  61.73351  64.19799  61.74998  63.26731  95.92398  63.26731
2         78.84541  62.80196         15.63421   0.000000  95.92398  63.26731  61.74998  63.26731  61.76698  62.33662  95.94098  62.33662
2         78.86269  61.87127         15.71889   0.000000  95.94098  62.33662  61.76698  62.33662  61.78452  61.40591  95.95852  61.40591
2         78.88050  60.94056         15.80357   0.000000  95.95852  61.40591  61.78452  61.40591  61.80260  60.47520  95.97660  60.47520
2         78.89884  60.00984         15.88824   0.000000  95.97660  60.47520  61.80260  60.47520  61.82122  59.54448  95.99522  59.54448
2         78.91773  59.07911         15.97292   0.000000  95.99522  59.54448  61.82122  59.54448  61.84037  58.61374  96.01437  58.61374
2         78.93715  58.14837         16.05760   0.000000  96.01437  58.61374  61.84037  58.61374  61.86006  57.68299  96.03406  57.68299
2         78.95711  57.21761         16.14228   0.000000  96.03406  57.68299  61.86006  57.68299  61.88029  56.75223  96.05429  56.75223
2         78.97760  56.28685         16.22695   0.000000  96.05429  56.75223  61.88029  56.75223  61.90105  55.82146  96.07505  55.82146
2         78.99864  55.35608         16.31163   0.000000  96.07505  55.82146  61.90105  55.82146  61.92235  54.89068  96.09635  54.89068
2         79.02021  54.42529         16.39631   0.000000  96.09635  54.89068  61.92235  54.89068  61.94419  53.95989  96.11819  53.95989
2         79.04231  53.49449         16.48098   0.000000  96.11819  53.95989  61.94419  53.95989  61.96657  53.02909  96.14057  53.02909
2         79.06496  52.56368         16.56566   0.000000  96.14057  53.02909  61.96657  53.02909  61.98948  52.09827  96.16348  52.09827
2         79.08814  51.63286         16.65034   0.000000  96.16348  52.09827  61.98948  52.09827  62.01293  51.16745  96.18693  51.16745
2         79.11185  50.70203         16.73501   0.000000  96.18693  51.16745  62.01293  51.16745  62.03691  50.23661  96.21091  50.23661
2         79.13610  49.77119         16.81969   0.000000  96.21091  50.23661  62.03691  50.23661  62.06143  49.30576  96.23543  49.30576
2         79.16089  48.84033         16.90437   0.000000  96.23543  49.30576  62.06143  49.30576  62.08649  48.37490  96.26049  48.37490
2         79.18622  47.90947         16.98904   0.000000  96.26049  48.37490  62.08649  48.37490  62.11208  47.44403  96.28608  47.44403
2         79.21208  46.97859         17.07372   0.000000  96.28608  47.44403  62.11208  47.44403  62.13821  46.51315  96.31221  46.51315
2         79.23848  46.04771         17.15840   0.000000  96.31221  46.51315  62.13821  46.51315  62.16488  45.58226  96.33888  45.58226
2         79.26541  45.11681         17.24307   0.000000  96.33888  45.58226  62.16488  45.58226  62.19208  44.65135  96.36608  44.65135
2         79.29288  44.18590         17.32775   0.000000  96.36608  44.65135  62.19208  44.65135  62.21982  43.72044  96.39382  43.72044
2         79.32089  43.25498         17.41243   0.000000  96.39382  43.72044  62.21982  43.72044  62.24809  42.78951  96.42209  42.78951
2         79.34943  42.32404         17.49711   0.000000  96.42209  42.78951  62.24809  42.78951  62.27690  41.85857  96.45090  41.85857
2         79.37850  41.39310         17.58178   0.000000  96.45090  41.85857  62.27690  41.85857  62.30624  40.92762  96.48024  40.92762
2         79.40812  40.46215         17.66646   0.000000  96.48024  40.92762  62.30624  40.92762  62.33612  39.99666  96.51012  39.99666
2         79.43826  39.53118         17.75114   0.000000  96.51012  39.99666  62.33612  39.99666  62.36654  39.06569  96.54054  39.06569
2         79.46894  38.60020         17.83581   0.000000  96.54054  39.06569  62.36654  39.06569  62.39749  38.13471  96.57149  38.13471
2         79.50016  37.66921         17.92049   0.000000  96.57149  38.13471  62.39749  38.13471  62.42897  37.20372  96.60297  37.20372
2         79.53191  36.73821         18.00517   0.000000  96.60297  37.20372  62.42897  37.20372  62.46099  36.27271  96.63499  36.27271
2         79.56420  35.80720         18.08984   0.000000  96.63499  36.27271  62.46099  36.27271  62.49354  35.34169  96.66754  35.34169
2         79.59702  34.87618         18.17452   0.000000  96.66754  35.34169  62.49354  35.34169  62.52663  34.41067  96.70063  34.41067
2         79.63038  33.94515         18.25920   0.000000  96.70063  34.41067  62.52663  34.41067  62.56026  33.47963  96.73426  33.47963
2         79.66427  33.01410         18.34387   0.000000  96.73426  33.47963  62.56026  33.47963  62.59442  32.54858  96.76842  32.54858
2         79.69870  32.08305         18.42855   0.000000  96.76842  32.54858  62.59442  32.54858  62.62911  31.61752  96.80311  31.61752
2         79.73366  31.15198         18.51323   0.000000  96.80311  31.61752  62.62911  31.61752  62.66434  30.68644  96.83834  30.68644
2         79.76915  30.22090         18.59790   0.000000  96.83834  30.68644  62.66434  30.68644  62.70010  29.75536  96.87410  29.75536
2         79.80518  29.28981         18.68258   0.000000  96.87410  29.75536  62.70010  29.75536  62.73639  28.82427  96.91039  28.82427
2         79.84174  28.35871         18.76726   0.000000  96.91039  28.82427  62.73639  28.82427  62.77322  27.89316  96.94722  27.89316
2         79.87884  27.42760         18.85194   0.000000  96.94722  27.89316  62.77322  27.89316  62.81059  26.96204  96.98459  26.96204
2         79.91647  26.49648         18.93661   0.000000  96.98459  26.96204  62.81059  26.96204  62.84849  26.03091  97.02249  26.03091
2         79.95463  25.56535         19.02129   0.000000  97.02249  26.03091  62.84849  26.03091  62.88692  25.09977  97.06092  25.09977
2         79.99333  24.63420         19.10597   0.000000  97.06092  25.09977  62.88692  25.09977  62.92588  24.16862  97.09988  24.16862
2         80.03256  23.70304         19.19064   0.000000  97.09988  24.16862  62.92588  24.16862  62.96538  23.23746  97.13938  23.23746
2         80.07233  22.77188         19.27532   0.000000  97.13938  23.23746  62.96538  23.23746  63.00541  22.30629  97.17941  22.30629
2         80.11263  21.84070         19.36000   0.000000  97.17941  22.30629  63.00541  22.30629  63.04598  21.37510  97.21998  21.37510
2         80.15346  20.90951         19.44467   0.000000  97.21998  21.37510  63.04598  21.37510  63.08708  20.44391  97.26108  20.44391
2         80.19483  19.97830         19.52935   0.000000  97.26108  20.44391  63.08708  20.44391  63.12871  19.51270  97.30271  19.51270
2         80.23672  19.04709         19.61403   0.000000  97.30271  19.51270  63.12871  19.51270  63.17087  18.58148  97.34487  18.58148
2         80.27915  18.11587         19.69870   0.000000  97.34487  18.58148  63.17087  18.58148  63.21357  17.65025  97.38757  17.65025
2         80.32212  17.18463         19.78338   0.000000  97.38757  17.65025  63.21357  17.65025  63.25680  16.71901  97.43080  16.71901
2         80.36562  16.25339         19.86806   0.000000  97.43080  16.71901  63.25680  16.71901  63.30056  15.78776  97.47456  15.78776
2         80.40965  15.32213         19.95273   0.000000  97.47456  15.78776  63.30056  15.78776  63.34486  14.85650  97.51886  14.85650
2         80.45421  14.39086         20.03741   0.000000  97.51886  14.85650  63.34486  14.85650  63.38969  13.92522  97.56369  13.92522
2         80.49930  13.45958         20.12209   0.000000  97.56369  13.92522  63.38969  13.92522  63.43505  12.99394  97.60905  12.99394
2         80.54493  12.52829         20.20677   0.000000  97.60905  12.99394  63.43505  12.99394  63.48094  12.06264  97.65494  12.06264
2         80.59109  11.59699         20.29144   0.000000  97.65494  12.06264  63.48094  12.06264  63.52737  11.13133  97.70137  11.13133
2         80.63778  10.66567         20.37612   0.000000  97.70137  11.13133  63.52737  11.13133  63.57433  10.20001  97.74833  10.20001
2         80.68500   9.73435         20.46080   0.000000  97.74833  10.20001  63.57433  10.20001  63.62182   9.26868  97.79582   9.26868
2         80.73276   8.80301         20.54547   0.000000  97.79582   9.26868  63.62182   9.26868  63.66984   8.33734  97.84384   8.33734
2         80.78105   7.87167         20.63015   0.000000  97.84384   8.33734  63.66984   8.33734  63.71839   7.40599  97.89239   7.40599
2         80.82987   6.94031         20.71483   0.000000  97.89239   7.40599  63.71839   7.40599  63.76748   6.47462  97.94148   6.47462
2         80.87922   6.00894         20.79950   0.000000  97.94148   6.47462  63.76748   6.47462  63.81709   5.54325  97.99109   5.54325
2         80.92910   5.07756         20.88418   0.000000  97.99109   5.54325  63.81709   5.54325  63.86724   4.61186  98.04124   4.61186
2         80.97952   4.14616         20.96886   0.000000  98.04124   4.61186  63.86724   4.61186  63.91792   3.68046  98.09192   3.68046
2         81.03046   3.21476         21.05353   0.000000  98.09192   3.68046  63.91792   3.68046  63.96913   2.74905  98.14313   2.74905
2         81.08194   2.28335         21.13821   0.000000  98.14313   2.74905  63.96913   2.74905  64.02088   1.81763  98.19488   1.81763
2         81.13395   1.35192         21.22289   0.000000  98.19488   1.81763  64.02088   1.81763  64.07315   0.88620  98.24715   0.88620
2         81.18648   0.42048         21.30756   0.000000  98.24715   0.88620  64.07315   0.88620  64.12595  -0.04524  98.29995  -0.04524
2         81.23955  -0.51096         21.39224   0.000000  98.29995  -0.04524  64.12595  -0.04524  64.17929  -0.97669  98.35329  -0.97669
3         81.71246 127.88186         19.36000   0.000000  98.98392 128.11371  64.48292 128.11371  64.44115 127.65001  98.94215 127.65001
3         81.67097 127.41816         19.44467   0.000000  98.94215 127.65001  64.44115 127.65001  64.39994 127.18631  98.90094 127.18631
3         81.63005 126.95445         19.52935   0.000000  98.90094 127.18631  64.39994 127.18631  64.35930 126.72260  98.86030 126.72260
3         81.58969 126.49075         19.61403   0.000000  98.86030 126.72260  64.35930 126.72260  64.31922 126.25890  98.82022 126.25890
3         81.54989 126.02705         19.69870   0.000000  98.82022 126.25890  64.31922 126.25890  64.27970 125.79520  98.78070 125.79520
3         81.51066 125.56335         19.78338   0.000000  98.78070 125.79520  64.27970 125.79520  64.24075 125.33149  98.74175 125.33149
3         81.47199 125.09964         19.86806   0.000000  98.74175 125.33149  64.24075 125.33149  64.20237 124.86779  98.70337 124.86779
3         81.43389 124.63594         19.95273   0.000000  98.70337 124.86779  64.20237 124.86779  64.16455 124.40409  98.66555 124.40409
3         81.39635 124.17224         20.03741   0.000000  98.66555 124.40409  64.16455 124.40409  64.12729 123.94039  98.62829 123.94039
3         81.35937 123.70854         20.12209   0.000000  98.62829 123.94039  64.12729 123.94039  64.09060 123.47668  98.59160 123.47668
3         81.32296 123.24483         20.20677   0.000000  98.59160 123.47668  64.09060 123.47668  64.05447 123.01298  98.55547 123.01298
3         81.28712 122.78113         20.29144   0.000000  98.55547 123.01298  64.05447 123.01298  64.01891 122.54928  98.51991 122.54928
3         81.25184 122.31743         20.37612   0.000000  98.51991 122.54928  64.01891 122.54928  63.98391 122.08558  98.48491 122.08558
3         81.21712 121.85372         20.46080   0.000000  98.48491 122.08558  63.98391 122.08558  63.94947 121.62187  98.45047 121.62187
3         81.18297 121.39002         20.54547   0.000000  98.45047 121.62187  63.94947 121.62187  63.91560 121.15817  98.41660 121.15817
3         81.14938 120.92632         20.63015   0.000000  98.41660 121.15817  63.91560 121.15817  63.88230 120.69447  98.38330 120.69447
3         81.11636 120.46262         20.71483   0.000000  98.38330 120.69447  63.88230 120.69447  63.84956 120.23076  98.35056 120.23076
3         81.08390 119.99891         20.79950   0.000000  98.35056 120.23076  63.84956 120.23076  63.81738 119.76706  98.31838 119.76706
3         81.05201 119.53521         20.88418   0.000000  98.31838 119.76706  63.81738 119.76706  63.78577 119.30336  98.28677 119.30336
3         81.02068 119.07151         20.96886   0.000000  98.28677 119.30336  63.78577 119.30336  63.75472 118.83966  98.25572 118.83966
3         80.98991 118.60780         21.05353   0.000000  98.25572 118.83966  63.75472 118.83966  63.72424 118.37595  98.22524 118.37595
3         80.95971 118.14410         21.13821   0.000000  98.22524 118.37595  63.72424 118.37595  63.69432 117.91225  98.19532 117.91225
3         80.93008 117.68040         21.22289   0.000000  98.19532 117.91225  63.69432 117.91225  63.66497 117.44855  98.16597 117.44855
3         80.90101 117.21670         21.30756   0.000000  98.16597 117.44855  63.66497 117.44855  63.63618 116.98484  98.13718 116.98484
3         80.87250 116.75299         21.39224   0.000000  98.13718 116.98484  63.63618 116.98484  63.60796 116.52114  98.10896 116.52114
3         80.84456 116.28929         21.47692   0.000000  98.10896 116.52114  63.60796 116.52114  63.58030 116.05744  98.08130 116.05744
3         80.81718 115.82559         21.56160   0.000000  98.08130 116.05744  63.58030 116.05744  63.55320 115.59374  98.05420 115.59374
3         80.79037 115.36188         21.64627   0.000000  98.05420 115.59374  63.55320 115.59374  63.52667 115.13003  98.02767 115.13003
3         80.76412 114.89818         21.73095   0.000000  98.02767 115.13003  63.52667 115.13003  63.50071 114.66633  98.00171 114.66633
3         80.73844 114.43448         21.81563   0.000000  98.00171 114.66633  63.50071 114.66633  63.47531 114.20263  97.97631 114.20263
3         80.71332 113.97078         21.90030   0.000000  97.97631 114.20263  63.47531 114.20263  63.45047 113.73892  97.95147 113.73892
3         80.68876 113.50707         21.98498   0.000000  97.95147 113.73892  63.45047 113.73892  63.42620 113.27522  97.92720 113.27522
3         80.66477 113.04337         22.06966   0.000000  97.92720 113.27522  63.42620 113.27522  63.40249 112.81152  97.90349 112.81152
1         42.53758 127.90483         19.36000   0.000000  58.93484 128.36984  26.18484 128.36984  26.14049 127.43983  58.89049 127.43983
1         42.49356 126.97483         19.52935   0.000000  58.89049 127.43983  26.14049 127.43983  26.09680 126.50982  58.84680 126.50982
1         42.45020 126.04482         19.69870   0.000000  58.84680 126.50982  26.09680 126.50982  26.05377 125.57982  58.80377 125.57982
1         42.40751 125.11481         19.86806   0.000000  58.80377 125.57982  26.05377 125.57982  26.01140 124.64981  58.76140 124.64981
1         42.36547 124.18481         20.03741   0.000000  58.76140 124.64981  26.01140 124.64981  25.96970 123.71980  58.71970 123.71980
1         42.32409 123.25480         20.20677   0.000000  58.71970 123.71980  25.96970 123.71980  25.92865 122.78980  58.67865 122.78980
1         42.28337 122.32479         20.37612   0.000000  58.67865 122.78980  25.92865 122.78980  25.88826 121.85979  58.63826 121.85979
1         42.24331 121.39479         20.54547   0.000000  58.63826 121.85979  25.88826 121.85979  25.84853 120.92979  58.59853 120.92979
1         42.20391 120.46478         20.71483   0.000000  58.59853 120.92979  25.84853 120.92979  25.80946 119.99978  58.55946 119.99978
1         42.16518 119.53478         20.88418   0.000000  58.55946 119.99978  25.80946 119.99978  25.77105 119.06977  58.52105 119.06977
1         42.12710 118.60477         21.05353   0.000000  58.52105 119.06977  25.77105 119.06977  25.73331 118.13977  58.48331 118.13977
1         42.08968 117.67476         21.22289   0.000000  58.48331 118.13977  25.73331 118.13977  25.69622 117.20976  58.44622 117.20976
1         42.05292 116.74476         21.39224   0.000000  58.44622 117.20976  25.69622 117.20976  25.65979 116.27975  58.40979 116.27975
1         42.01682 115.81475         21.56160   0.000000  58.40979 116.27975  25.65979 116.27975  25.62402 115.34975  58.37402 115.34975
1         41.98139 114.88475         21.73095   0.000000  58.37402 115.34975  25.62402 115.34975  25.58891 114.41974  58.33891 114.41974
1         41.94661 113.95474         21.90030   0.000000  58.33891 114.41974  25.58891 114.41974  25.55447 113.48974  58.30447 113.48974
1         41.91249 113.02473         22.06966   0.000000  58.30447 113.48974  25.55447 113.48974  25.52068 112.55973  58.27068 112.55973
1         41.87903 112.09473         22.23901   0.000000  58.27068 112.55973  25.52068 112.55973  25.48755 111.62972  58.23755 111.62972
1         41.84623 111.16472         22.40836   0.000000  58.23755 111.62972  25.48755 111.62972  25.45508 110.69972  58.20508 110.69972
1         41.81410 110.23472         22.57772   0.000000  58.20508 110.69972  25.45508 110.69972  25.42327 109.76971  58.17327 109.76971
1         41.78262 109.30471         22.74707   0.000000  58.17327 109.76971  25.42327 109.76971  25.39213 108.83971  58.14213 108.83971
1         41.75180 108.37470         22.91643   0.000000  58.14213 108.83971  25.39213 108.83971  25.36164 107.90970  58.11164 107.90970
1         41.72164 107.44470         23.08578   0.000000  58.11164 107.90970  25.36164 107.90970  25.33181 106.97969  58.08181 106.97969
1         41.69215 106.51469         23.25513   0.000000  58.08181 106.97969  25.33181 106.97969  25.30264 106.04969  58.05264 106.04969
1         41.66331 105.58469         23.42449   0.000000  58.05264 106.04969  25.30264 106.04969  25.27414 105.11968  58.02414 105.11968
1         41.63513 104.65468         23.59384   0.000000  58.02414 105.11968  25.27414 105.11968  25.24629 104.18968  57.99629 104.18968
1         41.60761 103.72467         23.76319   0.000000  57.99629 104.18968  25.24629 104.18968  25.21910 103.25967  57.96910 103.25967
1         41.58076 102.79467         23.93255   0.000000  57.96910 103.25967  25.21910 103.25967  25.19257 102.32967  57.94257 102.32967
1         41.55456 101.86466         24.10190   0.000000  57.94257 102.32967  25.19257 102.32967  25.16671 101.39966  57.91671 101.39966
1         41.52902 100.93466         24.27126   0.000000  57.91671 101.39966  25.16671 101.39966  25.14150 100.46965  57.89150 100.46965
1         41.50414 100.00465         24.44061   0.000000  57.89150 100.46965  25.14150 100.46965  25.11695  99.53965  57.86695  99.53965
1         41.47993  99.07465         24.60996   0.000000  57.86695  99.53965  25.11695  99.53965  25.09306  98.60964  57.84306  98.60964
1         41.45637  98.14464         24.77932   0.000000  57.84306  98.60964  25.09306  98.60964  25.06984  97.67964  57.81984  97.67964
1         41.43347  97.21464         24.94867   0.000000  57.81984  97.67964  25.06984  97.67964  25.04727  96.74963  57.79727  96.74963
1         41.41123  96.28463         25.11802   0.000000  57.79727  96.74963  25.04727  96.74963  25.02536  95.81963  57.77536  95.81963
1         41.38966  95.35462         25.28738   0.000000  57.77536  95.81963  25.02536  95.81963  25.00412  94.88962  57.75412  94.88962
1         41.36874  94.42462         25.45673   0.000000  57.75412  94.88962  25.00412  94.88962  24.98353  93.95962  57.73353  93.95962
1         41.34848  93.49461         25.62609   0.000000  57.73353  93.95962  24.98353  93.95962  24.96360  93.02961  57.71360  93.02961
1         41.32889  92.56461         25.79544   0.000000  57.71360  93.02961  24.96360  93.02961  24.94434  92.09961  57.69434  92.09961
1         41.30995  91.63460         25.96479   0.000000  57.69434  92.09961  24.94434  92.09961  24.92573  91.16960  57.67573  91.16960
1         41.29167  90.70460         26.13415   0.000000  57.67573  91.16960  24.92573  91.16960  24.90778  90.23960  57.65778  90.23960
1         41.27406  89.77459         26.30350   0.000000  57.65778  90.23960  24.90778  90.23960  24.89049  89.30959  57.64049  89.30959
1         41.25710  88.84459         26.47285   0.000000  57.64049  89.30959  24.89049  89.30959  24.87387  88.37958  57.62387  88.37958
1         41.24080  87.91458         26.64221   0.000000  57.62387  88.37958  24.87387  88.37958  24.85790  87.44958  57.60790  87.44958
1         41.22516  86.98458         26.81156   0.000000  57.60790  87.44958  24.85790  87.44958  24.84259  86.51957  57.59259  86.51957
1         41.21019  86.05457         26.98092   0.000000  57.59259  86.51957  24.84259  86.51957  24.82795  85.58957  57.57795  85.58957
1         41.19587  85.12457         27.15027   0.000000  57.57795  85.58957  24.82795  85.58957  24.81396  84.65956  57.56396  84.65956
1         41.18221  84.19456         27.31962   0.000000  57.56396  84.65956  24.81396  84.65956  24.80063  83.72956  57.55063  83.72956
1         41.16922  83.26456         27.48898   0.000000  57.55063  83.72956  24.80063  83.72956  24.78797  82.79955  57.53797  82.79955
1         41.15688  82.33455         27.65833   0.000000  57.53797  82.79955  24.78797  82.79955  24.77596  81.86955  57.52596  81.86955
1         41.14521  81.40455         27.82768   0.000000  57.52596  81.86955  24.77596  81.86955  24.76461  80.93954  57.51461  80.93954
1         41.13419  80.47454         27.99704   0.000000  57.51461  80.93954  24.76461  80.93954  24.75393  80.00954  57.50393  80.00954
1         41.12383  79.54454         28.16639   0.000000  57.50393  80.00954  24.75393  80.00954  24.74390  79.07953  57.49390  79.07953
1         41.11414  78.61453         28.33575   0.000000  57.49390  79.07953  24.74390  79.07953  24.73454  78.14953  57.48454  78.14953
1         41.10510  77.68453         28.50510   0.000000  57.48454  78.14953  24.73454  78.14953  24.72583  77.21952  57.47583  77.21952
1         41.09672  76.75452         28.67445   0.000000  57.47583  77.21952  24.72583  77.21952  24.71778  76.28952  57.46778  76.28952
1         41.08901  75.82452         28.84381   0.000000  57.46778  76.28952  24.71778  76.28952  24.71040  75.35951  57.46040  75.35951
1         41.08195  74.89451         29.01316   0.000000  57.46040  75.35951  24.71040  75.35951  24.70367  74.42951  57.45367  74.42951
1         41.07555  73.96451         29.18251   0.000000  57.45367  74.42951  24.70367  74.42951  24.69760  73.49950  57.44760  73.49950
1         41.06982  73.03450         29.35187   0.000000  57.44760  73.49950  24.69760  73.49950  24.69220  72.56950  57.44220  72.56950
1         41.06474  72.10450         29.52122   0.000000  57.44220  72.56950  24.69220  72.56950  24.68745  71.63950  57.43745  71.63950
1         41.06033  71.17449         29.69058   0.000000  57.43745  71.63950  24.68745  71.63950  24.68337  70.70949  57.43337  70.70949
1         41.05657  70.24449         29.85993   0.000000  57.43337  70.70949  24.68337  70.70949  24.67994  69.77949  57.42994  69.77949
1         41.05347  69.31448         30.02928   0.000000  57.42994  69.77949  24.67994  69.77949  24.67717  68.84948  57.42717  68.84948
1         41.05104  68.38448         30.19864   0.000000  57.42717  68.84948  24.67717  68.84948  24.67507  67.91948  57.42507  67.91948
1         41.04926  67.45447         30.36799   0.000000  57.42507  67.91948  24.67507  67.91948  24.67362  66.98947  57.42362  66.98947
1         41.04815  66.52447         30.53734   0.000000  57.42362  66.98947  24.67362  66.98947  24.67284  66.05947  57.42284  66.05947
1         41.04769  65.59447         30.70670   0.000000  57.42284  66.05947  24.67284  66.05947  24.67271  65.12946  57.42271  65.12946
1         41.04790  64.66446         30.87605   0.000000  57.42271  65.12946  24.67271  65.12946  24.67324  64.19946  57.42324  64.19946
1         41.04876  63.73446         31.04541   0.000000  57.42324  64.19946  24.67324  64.19946  24.67444  63.26945  57.42444  63.26945
1         41.05028  62.80445         31.21476   0.000000  57.42444  63.26945  24.67444  63.26945  24.67629  62.33945  57.42629  62.33945
1         41.05247  61.87445         31.38411   0.000000  57.42629  62.33945  24.67629  62.33945  24.67881  61.40945  57.42881  61.40945
1         41.05531  60.94444         31.55347   0.000000  57.42881  61.40945  24.67881  61.40945  24.68198  60.47944  57.43198  60.47944
1         41.05882  60.01444         31.72282   0.000000  57.43198  60.47944  24.68198  60.47944  24.68582  59.54944  57.43582  59.54944
1         41.06298  59.08443         31.89217   0.000000  57.43582  59.54944  24.68582  59.54944  24.69031  58.61943  57.44031  58.61943
1         41.06781  58.15443         32.06153   0.000000  57.44031  58.61943  24.69031  58.61943  24.69547  57.68943  57.44547  57.68943
1         41.07329  57.22443         32.23088   0.000000  57.44547  57.68943  24.69547  57.68943  24.70128  56.75942  57.45128  56.75942
1         41.07944  56.29442         32.40024   0.000000  57.45128  56.75942  24.70128  56.75942  24.70776  55.82942  57.45776  55.82942
1         41.08624  55.36442         32.56959   0.000000  57.45776  55.82942  24.70776  55.82942  24.71489  54.89942  57.46489  54.89942
1         41.09370  54.43441         32.73894   0.000000  57.46489  54.89942  24.71489  54.89942  24.72268  53.96941  57.47268  53.96941
1         41.10183  53.50441         32.90830   0.000000  57.47268  53.96941  24.72268  53.96941  24.73114  53.03941  57.48114  53.03941
1         41.11061  52.57441         33.07765   0.000000  57.48114  53.03941  24.73114  53.03941  24.74025  52.10940  57.49025  52.10940
1         41.12006  51.64440         33.24700   0.000000  57.49025  52.10940  24.74025  52.10940  24.75003  51.17940  57.50003  51.17940
1         41.13016  50.71440         33.41636   0.000000  57.50003  51.17940  24.75003  51.17940  24.76046  50.24940  57.51046  50.24940
1         41.14093  49.78439         33.58571   0.000000  57.51046  50.24940  24.76046  50.24940  24.77156  49.31939  57.52156  49.31939
1         41.15235  48.85439         33.75507   0.000000  57.52156  49.31939  24.77156  49.31939  24.78331  48.38939  57.53331  48.38939
1         41.16444  47.92439         33.92442   0.000000  57.53331  48.38939  24.78331  48.38939  24.79573  47.45938  57.54573  47.45938
1         41.17718  46.99438         34.09377   0.000000  57.54573  47.45938  24.79573  47.45938  24.80880  46.52938  57.55880  46.52938
1         41.19059  46.06438         34.26313   0.000000  57.55880  46.52938  24.80880  46.52938  24.82254  45.59938  57.57254  45.59938
1         41.20465  45.13437         34.43248   0.000000  57.57254  45.59938  24.82254  45.59938  24.83693  44.66937  57.58693  44.66937
1         41.21938  44.20437         34.60183   0.000000  57.58693  44.66937  24.83693  44.66937  24.85199  43.73937  57.60199  43.73937
1         41.23476  43.27437         34.77119   0.000000  57.60199  43.73937  24.85199  43.73937  24.86770  42.80936  57.61770  42.80936
1         41.25081  42.34436         34.94054   0.000000  57.61770  42.80936  24.86770  42.80936  24.88408  41.87936  57.63408  41.87936
1         41.26751  41.41436         35.10990   0.000000  57.63408  41.87936  24.88408  41.87936  24.90111  40.94936  57.65111  40.94936
1         41.28488  40.48435         35.27925   0.000000  57.65111  40.94936  24.90111  40.94936  24.91881  40.01935  57.66881  40.01935
1         41.30291  39.55435         35.44860   0.000000  57.66881  40.01935  24.91881  40.01935  24.93717  39.08935  57.68717  39.08935
1         41.32159  38.62435         35.61796   0.000000  57.68717  39.08935  24.93717  39.08935  24.95618  38.15935  57.70618  38.15935
1         41.34094  37.69434         35.78731   0.000000  57.70618  38.15935  24.95618  38.15935  24.97586  37.22934  57.72586  37.22934
1         41.36094  36.76434         35.95666   0.000000  57.72586  37.22934  24.97586  37.22934  24.99619  36.29934  57.74619  36.29934
1         41.38161  35.83434         36.12602   0.000000  57.74619  36.29934  24.99619  36.29934  25.01719  35.36933  57.76719  35.36933
1         41.40293  34.90433         36.29537   0.000000  57.76719  35.36933  25.01719  35.36933  25.03884  34.43933  57.78884  34.43933
1         41.42492  33.97433         36.46473   0.000000  57.78884  34.43933  25.03884  34.43933  25.06116  33.50933  57.81116  33.50933
1         41.44756  33.04433         36.63408   0.000000  57.81116  33.50933  25.06116  33.50933  25.08413  32.57932  57.83413  32.57932
1         41.47087  32.11432         36.80343   0.000000  57.83413  32.57932  25.08413  32.57932  25.10777  31.64932  57.85777  31.64932
1         41.49484  31.18432         36.97279   0.000000  57.85777  31.64932  25.10777  31.64932  25.13207  30.71932  57.88207  30.71932
1         41.51946  30.25432         37.14214   0.000000  57.88207  30.71932  25.13207  30.71932  25.15702  29.78931  57.90702  29.78931
1         41.54475  29.32431         37.31149   0.000000  57.90702  29.78931  25.15702  29.78931  25.18264  28.85931  57.93264  28.85931
1         41.57069  28.39431         37.48085   0.000000  57.93264  28.85931  25.18264  28.85931  25.20891  27.92931  57.95891  27.92931
1         41.59730  27.46431         37.65020   0.000000  57.95891  27.92931  25.20891  27.92931  25.23585  26.99930  57.98585  26.99930
1         41.62456  26.53430         37.81956   0.000000  57.98585  26.99930  25.23585  26.99930  25.26345  26.06930  58.01345  26.06930
1         41.65249  25.60430         37.98891   0.000000  58.01345  26.06930  25.26345  26.06930  25.29170  25.13930  58.04170  25.13930
1         41.68108  24.67430         38.15826   0.000000  58.04170  25.13930  25.29170  25.13930  25.32062  24.20929  58.07062  24.20929
1         41.71032  23.74429         38.32762   0.000000  58.07062  24.20929  25.32062  24.20929  25.35019  23.27929  58.10019  23.27929
1         41.74023  22.81429         38.49697   0.000000  58.10019  23.27929  25.35019  23.27929  25.38043  22.34929  58.13043  22.34929
1         41.77080  21.88429         38.66632   0.000000  58.13043  22.34929  25.38043  22.34929  25.41133  21.41928  58.16133  21.41928
1         41.80202  20.95428         38.83568   0.000000  58.16133  21.41928  25.41133  21.41928  25.44288  20.48928  58.19288  20.48928
1         41.83391  20.02428         39.00503   0.000000  58.19288  20.48928  25.44288  20.48928  25.47510  19.55928  58.22510  19.55928
1         41.86645  19.09428         39.17439   0.000000  58.22510  19.55928  25.47510  19.55928  25.50797  18.62928  58.25797  18.62928
1         41.89966  18.16427         39.34374   0.000000  58.25797  18.62928  25.50797  18.62928  25.54151  17.69927  58.29151  17.69927
1         41.93353  17.23427         39.51309   0.000000  58.29151  17.69927  25.54151  17.69927  25.57571  16.76927  58.32571  16.76927
1         41.96805  16.30427         39.68245   0.000000  58.32571  16.76927  25.57571  16.76927  25.61056  15.83927  58.36056  15.83927
1         42.00324  15.37427         39.85180   0.000000  58.36056  15.83927  25.61056  15.83927  25.64608  14.90926  58.39608  14.90926
1         42.03909  14.44426         40.02115   0.000000  58.39608  14.90926  25.64608  14.90926  25.68226  13.97926  58.43226  13.97926
1         42.07559  13.51426         40.19051   0.000000  58.43226  13.97926  25.68226  13.97926  25.71909  13.04926  58.46909  13.04926
1         42.11276  12.58426         40.35986   0.000000  58.46909  13.04926  25.71909  13.04926  25.75659  12.11926  58.50659  12.11926
1         42.15059  11.65425         40.52922   0.000000  58.50659  12.11926  25.75659  12.11926  25.79475  11.18925  58.54475  11.18925
1         42.18907  10.72425         40.69857   0.000000  58.54475  11.18925  25.79475  11.18925  25.83356  10.25925  58.58356  10.25925
1         42.22822   9.79425         40.86792   0.000000  58.58356  10.25925  25.83356  10.25925  25.87304   9.32925  58.62304   9.32925
1         42.26803   8.86425         41.03728   0.000000  58.62304   9.32925  25.87304   9.32925  25.91318   8.39924  58.66318   8.39924
1         42.30849   7.93424         41.20663   0.000000  58.66318   8.39924  25.91318   8.39924  25.95397   7.46924  58.70397   7.46924
1         42.34962   7.00424         41.37598   0.000000  58.70397   7.46924  25.95397   7.46924  25.99543   6.53924  58.74543   6.53924
1         42.39141   6.07424         41.54534   0.000000  58.74543   6.53924  25.99543   6.53924  26.03755   5.60924  58.78755   5.60924
1         42.43385   5.14423         41.71469   0.000000  58.78755   5.60924  26.03755   5.60924  26.08032   4.67923  58.83032   4.67923
1         42.47696   4.21423         41.88405   0.000000  58.83032   4.67923  26.08032   4.67923  26.12376   3.74923  58.87376   3.74923
1         42.52073   3.28423         42.05340   0.000000  58.87376   3.74923  26.12376   3.74923  26.16786   2.81923  58.91786   2.81923
1         42.56515   2.35423         42.22275   0.000000  58.91786   2.81923  26.16786   2.81923  26.21261   1.88923  58.96261   1.88923
1         42.61024   1.42422         42.39211   0.000000  58.96261   1.88923  26.21261   1.88923  26.25803   0.95922  59.00803   0.95922
