\comment ORDFIND formatted solutions for order wavelengths, curvature, and widths
\comment Checked 03/12/03, P. Morris
\comment Flight update 12/06/03 P. Morris.
\comment Corrected order 14, trimmed red edges of orders 16-20, 05/24/04 P. Morris
\character channelID = 1
| order | wavelength_center |  a5       | a4        | a3        |  a2       |    a1     | a0        |  b5       | b4        | b3        |  b2       |    b1     | b0        | wavelength_min | wavelength_max | width_search |  width_found |
| int   | real              |  real     | real      | real      |  real     |    real   | real      |  real     | real      | real      |  real     |    real   | real      | real           | real           | real         |  real        |
  11          18.6561         0.0000e+00  0.0000e+00 0.0000e+00  0.0000e+00   -62.6791   9.2469      0.0000e+00  0.0000e+00  0.0000e+00  0.0000e+00  -1275.57  64.0000    17.7200           19.5921            8.5000e+00     5.00000e+00
  12          17.1507         0.0000e+00  0.0000e+00 0.0000e+00  0.0000e+00   -48.2989   29.7369     0.0000e+00  0.0000e+00  0.0000e+00  0.0000e+00  -1304.94  64.0001    16.3095           17.9918            8.5000e+00     5.00000e+00
  13          15.8620         0.0000e+00  0.0000e+00 0.0000e+00  0.0000e+00   -32.4721   47.1987     0.0000e+00  0.0000e+00  0.0000e+00  0.0000e+00  -1291.29  64.0000    15.0759           16.6482            8.5000e+00     5.10000e+00
  14          14.7508         0.0000e+00  0.0000e+00 0.0000e+00  0.0000e+00   -28.2601   62.2760     0.0000e+00  0.0000e+00  0.0000e+00  0.0000e+00  -1298.49  63.9965    14.0237           15.4778            8.5000e+00     5.00000e+00
  15          13.7864         0.0000e+00  0.0000e+00 0.0000e+00  0.0000e+00   -4.51893   75.4968     0.0000e+00  0.0000e+00  0.0000e+00  0.0000e+00  -1303.12  64.0012    13.1093           14.4635            8.5000e+00     5.05000e+00
  16          12.9127         0.0000e+00  0.0000e+00 0.0000e+00  0.0000e+00   -12.6835   86.7290     0.0000e+00  0.0000e+00  0.0000e+00  0.0000e+00  -1315.64  66.4963    12.3091           13.5163            8.5000e+00     5.00000e+00
  17          12.1306         0.0000e+00  0.0000e+00 0.0000e+00  0.0000e+00    10.6025   97.2603     0.0000e+00  0.0000e+00  0.0000e+00  0.0000e+00  -1290.01  69.5042    11.6488           12.6585            8.5000e+00     5.00000e+00
  18          11.4455         0.0000e+00  0.0000e+00 0.0000e+00  0.0000e+00    15.4906   106.324     0.0000e+00  0.0000e+00  0.0000e+00  0.0000e+00  -1287.11  72.4963    10.9192           11.9557            8.5000e+00     5.00000e+00
  19          10.8268         0.0000e+00  0.0000e+00 0.0000e+00  0.0000e+00    23.8299   114.490     0.0000e+00  0.0000e+00  0.0000e+00  0.0000e+00  -1272.20  75.5036    10.3800           11.2736            8.5000e+00     5.75000e+00
  20          10.2749         0.0000e+00  0.0000e+00 0.0000e+00  0.0000e+00    31.2109   121.808     0.0000e+00  0.0000e+00  0.0000e+00  0.0000e+00  -1330.71  78.5051    9.89273           10.6571            8.5000e+00     5.75000e+00
